Subj#,Trial#,Left Color,Right Color,Left Luminance (0-bright 1-dark),Right Luminance (0-bright 1-dark),Viewing Distance(1.5 3 & 8 m),User response(0-left 1-right),ResponseTime (ms)
150012_0,1,DarkRed,LightYellow,1,0,7,1,3933.22
150012_0,2,DarkRed,DarkBlue,1,1,3,1,1172.72
150012_0,3,LightCyan,DarkMagenta,0,1,3,1,832.11
150012_0,4,LightBlue,LightGreen,0,0,1.5,0,8134.30
150012_0,5,DarkRed,LightGreen,1,0,1.5,1,1939.08
150012_0,6,DarkGreen,LightYellow,1,0,3,1,698.75
150012_0,7,DarkRed,DarkYellow,1,1,3,1,698.77
150012_0,8,LightRed,LightYellow,0,0,7,0,4780.78
150012_0,9,DarkYellow,LightMagenta,1,0,7,1,2346.40
150012_0,10,LightYellow,DarkMagenta,0,1,7,0,2230.76
150012_0,11,LightGreen,LightBlue,0,0,7,0,966.87
150012_0,12,LightYellow,LightMagenta,0,0,7,1,3532.11
150012_0,13,DarkMagenta,DarkBlue,1,1,1.5,1,801.77
150012_0,14,DarkMagenta,DarkYellow,1,1,7,1,963.96
150012_0,15,LightCyan,LightRed,0,0,3,1,833.74
150012_0,16,DarkMagenta,DarkBlue,1,1,3,1,876.77
150012_0,17,LightYellow,DarkYellow,0,1,7,0,7366.45
150012_0,18,LightBlue,LightCyan,0,0,3,0,699.19
150012_0,19,LightBlue,LightYellow,0,0,7,0,700.62
150012_0,20,LightRed,DarkGreen,0,1,1.5,1,4666.48
150012_0,21,DarkGreen,LightYellow,1,0,7,1,803.48
150012_0,22,LightMagenta,LightYellow,0,0,1.5,1,734.74
150012_0,23,LightBlue,LightCyan,0,0,1.5,1,775.66
150012_0,24,LightBlue,DarkBlue,0,1,3,0,5969.24
150012_0,25,DarkGreen,LightGreen,1,0,1.5,1,1869.38
150012_0,26,LightRed,DarkBlue,0,1,1.5,0,1929.82
150012_0,27,LightCyan,LightMagenta,0,0,1.5,1,2002.46
150012_0,28,DarkRed,DarkGreen,1,1,3,1,565.66
150012_0,29,DarkMagenta,DarkCyan,1,1,1.5,1,621.89
150012_0,30,LightCyan,LightMagenta,0,0,3,1,698.69
150012_0,31,DarkCyan,DarkRed,1,1,1.5,0,5602.65
150012_0,32,LightRed,LightGreen,0,0,3,1,2031.26
150012_0,33,DarkCyan,LightGreen,1,0,3,1,663.25
150012_0,34,DarkMagenta,DarkCyan,1,1,3,1,703.30
150012_0,35,LightYellow,LightRed,0,0,1.5,0,4200.18
150012_0,36,LightCyan,LightGreen,0,0,3,0,631.56
150012_0,37,DarkRed,DarkBlue,1,1,7,1,3031.59
150012_0,38,LightGreen,LightYellow,0,0,7,0,2013.10
150012_0,39,LightRed,LightCyan,0,0,7,1,1798.74
150012_0,40,DarkGreen,LightBlue,1,0,3,1,731.51
150012_0,41,LightYellow,DarkRed,0,1,1.5,0,3066.98
150012_0,42,DarkBlue,DarkMagenta,1,1,7,0,930.96
150012_0,43,LightCyan,DarkBlue,0,1,3,0,897.53
150012_0,44,DarkCyan,LightMagenta,1,0,1.5,0,629.81
150012_0,45,LightRed,DarkRed,0,1,7,0,629.40
150012_0,46,DarkYellow,LightBlue,1,0,7,1,7233.69
150012_0,47,DarkGreen,LightYellow,1,0,1.5,0,2206.29
150012_0,48,DarkCyan,DarkBlue,1,1,7,1,2066.14
150012_0,49,DarkGreen,LightRed,1,0,7,1,634.90
150012_0,50,LightBlue,DarkYellow,0,1,1.5,0,2934.09
150012_0,51,LightCyan,DarkGreen,0,1,1.5,0,733.68
150012_0,52,LightGreen,DarkRed,0,1,7,0,865.24
150012_0,53,LightBlue,DarkCyan,0,1,7,1,4369.39
150012_0,54,DarkMagenta,LightBlue,1,0,7,1,569.41
150012_0,55,LightMagenta,DarkYellow,0,1,3,0,2936.03
150012_0,56,LightRed,DarkYellow,0,1,1.5,1,1899.16
150012_0,57,LightRed,LightMagenta,0,0,7,1,702.58
150012_0,58,DarkMagenta,DarkCyan,1,1,7,1,832.32
150012_0,59,DarkGreen,DarkRed,1,1,1.5,0,4433.68
150012_0,60,DarkMagenta,DarkGreen,1,1,7,1,1800.75
150012_0,61,LightGreen,LightCyan,0,0,7,1,568.81
150012_0,62,DarkYellow,DarkRed,1,1,1.5,1,703.09
150012_0,63,LightGreen,DarkBlue,0,1,7,1,698.93
150012_0,64,DarkRed,DarkYellow,1,1,7,1,738.85
150012_0,65,LightMagenta,DarkBlue,0,1,7,1,629.50
150012_0,66,DarkGreen,LightRed,1,0,3,1,829.89
150012_0,67,LightCyan,DarkBlue,0,1,1.5,0,9068.69
150012_0,68,LightGreen,DarkMagenta,0,1,1.5,1,1999.51
150012_0,69,DarkGreen,LightCyan,1,0,7,0,2480.29
150012_0,70,DarkRed,DarkCyan,1,1,3,1,2365.22
150012_0,71,DarkGreen,LightBlue,1,0,7,0,1894.99
150012_0,72,LightBlue,DarkCyan,0,1,1.5,1,2503.54
150012_0,73,LightRed,DarkCyan,0,1,1.5,0,2402.02
150012_0,74,DarkYellow,LightRed,1,0,3,1,1799.62
150012_0,75,DarkRed,LightYellow,1,0,3,0,1968.13
150012_0,76,DarkCyan,DarkYellow,1,1,7,1,1998.45
150012_0,77,DarkBlue,LightYellow,1,0,1.5,1,732.17
150012_0,78,LightBlue,DarkRed,0,1,3,0,3197.94
150012_0,79,DarkBlue,DarkGreen,1,1,3,1,1965.41
150012_0,80,LightGreen,LightBlue,0,0,3,1,696.93
150012_0,81,LightYellow,LightCyan,0,0,7,1,801.57
150012_0,82,LightBlue,LightMagenta,0,0,1.5,1,767.67
150012_0,83,LightYellow,LightRed,0,0,3,1,1100.95
150012_0,84,LightRed,LightCyan,0,0,1.5,0,7602.45
150012_0,85,DarkGreen,DarkYellow,1,1,1.5,0,829.84
150012_0,86,LightRed,DarkMagenta,0,1,7,1,3797.99
150012_0,87,LightGreen,LightMagenta,0,0,3,1,1274.29
150012_0,88,LightYellow,DarkCyan,0,1,1.5,0,3973.09
150012_0,89,DarkGreen,DarkYellow,1,1,7,1,1839.97
150012_0,90,DarkCyan,LightBlue,1,0,3,0,2030.36
150012_0,91,DarkBlue,DarkRed,1,1,1.5,1,1875.68
150012_0,92,LightYellow,LightBlue,0,0,1.5,1,735.84
150012_0,93,LightMagenta,DarkGreen,0,1,7,1,837.82
150012_0,94,DarkRed,LightRed,1,0,3,1,699.04
150012_0,95,LightMagenta,LightRed,0,0,3,1,867.81
150012_0,96,DarkGreen,DarkYellow,1,1,3,0,6766.53
150012_0,97,DarkYellow,LightCyan,1,0,1.5,1,1835.14
150012_0,98,LightRed,DarkCyan,0,1,7,1,767.34
150012_0,99,LightRed,DarkBlue,0,1,3,0,3501.04
150012_0,100,LightMagenta,DarkRed,0,1,3,1,2099.74
150012_0,101,LightCyan,DarkGreen,0,1,3,1,738.40
150012_0,102,DarkGreen,LightBlue,1,0,1.5,0,3101.06
150012_0,103,DarkCyan,LightMagenta,1,0,7,1,1967.57
150012_0,104,LightGreen,DarkGreen,0,1,7,0,2032.79
150012_0,105,LightGreen,DarkBlue,0,1,3,1,1938.58
150012_0,106,LightCyan,DarkRed,0,1,3,1,533.82
150012_0,107,LightMagenta,DarkRed,0,1,7,1,798.90
150012_0,108,LightYellow,LightGreen,0,0,1.5,0,4167.99
150012_0,109,LightGreen,DarkCyan,0,1,7,1,1736.69
150012_0,110,DarkYellow,DarkBlue,1,1,3,0,1793.75
150012_0,111,LightYellow,DarkYellow,0,1,1.5,1,1836.50
150012_0,112,LightBlue,DarkMagenta,0,1,3,1,565.65
150012_0,113,LightMagenta,DarkRed,0,1,1.5,1,695.62
150012_0,114,DarkRed,LightBlue,1,0,1.5,0,4163.77
150012_0,115,LightMagenta,LightGreen,0,0,1.5,1,1734.69
150012_0,116,LightRed,LightMagenta,0,0,1.5,1,537.77
150012_0,117,DarkCyan,DarkYellow,1,1,1.5,1,771.55
150012_0,118,LightYellow,LightCyan,0,0,3,1,762.50
150012_0,119,DarkMagenta,DarkYellow,1,1,3,0,5467.37
150012_0,120,LightBlue,DarkYellow,0,1,3,1,2139.19
150012_0,121,DarkBlue,DarkCyan,1,1,3,1,670.87
150012_0,122,DarkCyan,LightYellow,1,0,7,0,3565.57
150012_0,123,LightBlue,LightCyan,0,0,7,1,2199.06
150012_0,124,DarkCyan,LightCyan,1,0,7,1,1137.24
150012_0,125,DarkYellow,LightMagenta,1,0,1.5,0,3496.70
150012_0,126,DarkMagenta,LightMagenta,1,0,1.5,1,1899.64
150012_0,127,DarkBlue,LightRed,1,0,7,0,2294.56
150012_0,128,LightRed,LightBlue,0,0,7,1,2041.05
150012_0,129,DarkRed,DarkMagenta,1,1,7,1,635.28
150012_0,130,DarkYellow,LightGreen,1,0,7,1,502.33
150012_0,131,LightRed,LightGreen,0,0,7,0,4127.47
150012_0,132,DarkMagenta,LightRed,1,0,1.5,1,2101.36
150012_0,133,LightCyan,DarkCyan,0,1,1.5,0,2036.46
150012_0,134,DarkBlue,DarkGreen,1,1,1.5,1,2033.00
150012_0,135,LightYellow,LightBlue,0,0,3,0,2265.34
150012_0,136,LightCyan,LightYellow,0,0,1.5,1,2330.33
150012_0,137,DarkYellow,LightRed,1,0,7,0,2333.21
150012_0,138,DarkBlue,LightGreen,1,0,1.5,1,2228.71
150012_0,139,DarkYellow,DarkBlue,1,1,1.5,1,555.33
150012_0,140,LightMagenta,DarkGreen,0,1,3,1,727.51
150012_0,141,LightGreen,DarkGreen,0,1,3,1,768.94
150012_0,142,LightCyan,DarkMagenta,0,1,1.5,0,5334.73
150012_0,143,LightBlue,LightRed,0,0,1.5,0,768.06
150012_0,144,LightYellow,LightGreen,0,0,3,1,2867.05
150012_0,145,DarkCyan,DarkGreen,1,1,1.5,1,606.66
150012_0,146,DarkBlue,LightYellow,1,0,7,0,2905.37
150012_0,147,LightBlue,LightRed,0,0,3,1,1804.08
150012_0,148,DarkYellow,LightGreen,1,0,1.5,1,603.48
150012_0,149,DarkRed,DarkMagenta,1,1,1.5,1,669.72
150012_0,150,DarkRed,LightCyan,1,0,7,1,729.38
150012_0,151,DarkCyan,DarkRed,1,1,7,1,635.79
150012_0,152,DarkYellow,LightYellow,1,0,3,1,686.91
150012_0,153,DarkBlue,LightBlue,1,0,7,0,7667.64
150012_0,154,LightCyan,DarkMagenta,0,1,7,1,1734.70
150012_0,155,LightGreen,LightCyan,0,0,1.5,0,1997.83
150012_0,156,DarkCyan,LightGreen,1,0,1.5,1,2130.88
150012_0,157,DarkCyan,LightRed,1,0,3,1,862.09
150012_0,158,LightGreen,LightMagenta,0,0,7,0,3598.54
150012_0,159,DarkMagenta,DarkRed,1,1,3,1,2702.73
150012_0,160,LightCyan,DarkRed,0,1,1.5,0,2267.07
150012_0,161,DarkCyan,DarkGreen,1,1,7,1,1832.98
150012_0,162,LightMagenta,DarkMagenta,0,1,3,0,1838.34
150012_0,163,LightRed,DarkRed,0,1,1.5,0,799.93
150012_0,164,DarkCyan,DarkYellow,1,1,3,1,2991.56
150012_0,165,LightMagenta,LightYellow,0,0,3,0,1734.23
150012_0,166,DarkCyan,DarkBlue,1,1,1.5,0,666.20
150012_0,167,LightYellow,DarkMagenta,0,1,3,1,3036.00
150012_0,168,LightGreen,DarkMagenta,0,1,3,1,765.10
150012_0,169,LightBlue,DarkMagenta,0,1,1.5,0,3165.56
150012_0,170,DarkGreen,DarkCyan,1,1,3,1,1904.56
150012_0,171,LightCyan,DarkYellow,0,1,7,0,2129.93
150012_0,172,DarkCyan,LightYellow,1,0,3,1,2104.39
150012_0,173,DarkMagenta,LightRed,1,0,3,1,1235.82
150012_0,174,LightCyan,DarkBlue,0,1,7,0,3767.86
150012_0,175,LightCyan,LightMagenta,0,0,7,0,900.55
150012_0,176,LightMagenta,LightBlue,0,0,3,1,3305.80
150012_0,177,DarkGreen,DarkBlue,1,1,7,0,2274.31
150012_0,178,DarkMagenta,LightYellow,1,0,1.5,1,2965.01
150012_0,179,LightCyan,DarkYellow,0,1,3,0,2666.95
150012_0,180,DarkBlue,LightBlue,1,0,1.5,1,2067.49
150012_0,181,LightMagenta,LightBlue,0,0,7,0,2031.07
150012_0,182,DarkBlue,LightMagenta,1,0,1.5,1,2036.54
150012_0,183,LightYellow,DarkBlue,0,1,3,1,600.94
150012_0,184,LightMagenta,DarkMagenta,0,1,7,1,834.14
150012_0,185,DarkGreen,DarkMagenta,1,1,1.5,0,4336.55
150012_0,186,DarkCyan,LightMagenta,1,0,3,0,973.42
150012_0,187,LightMagenta,DarkGreen,0,1,1.5,0,630.24
150012_0,188,DarkMagenta,DarkGreen,1,1,3,1,4566.68
150012_0,189,LightGreen,DarkMagenta,0,1,7,0,2034.49
150012_0,190,DarkBlue,DarkYellow,1,1,7,1,1901.79
150012_0,191,LightGreen,LightRed,0,0,1.5,0,1801.28
150012_0,192,LightGreen,DarkRed,0,1,3,1,1966.06
150012_0,193,DarkYellow,LightGreen,1,0,3,1,598.21
150012_0,194,DarkBlue,LightMagenta,1,0,3,1,734.79
150012_0,195,DarkCyan,LightCyan,1,0,3,1,635.98
150012_0,196,LightBlue,DarkRed,0,1,7,0,5568.30
150012_0,197,DarkMagenta,DarkYellow,1,1,1.5,0,669.10
150012_0,198,DarkGreen,DarkRed,1,1,7,1,2968.83
