Subj#,Trial#,Left Color,Right Color,Left Luminance (0-bright 1-dark),Right Luminance (0-bright 1-dark),Viewing Distance(1.5 3 & 8 m),User response(0-left 1-right),ResponseTime (ms)
248576,1,LightBlue,DarkBlue,0,1,7,0,2837.13
248576,2,DarkMagenta,LightCyan,1,0,1.5,0,3200.89
248576,3,LightBlue,LightCyan,0,0,7,0,3070.03
248576,4,LightMagenta,DarkRed,0,1,1.5,0,3569.49
248576,5,DarkMagenta,DarkBlue,1,1,3,0,2566.04
248576,6,LightCyan,DarkGreen,0,1,3,0,2298.44
248576,7,DarkBlue,LightRed,1,0,7,1,24637.54
248576,8,DarkMagenta,DarkGreen,1,1,3,1,4270.07
248576,9,DarkYellow,DarkBlue,1,1,3,1,3635.46
248576,10,LightCyan,LightMagenta,0,0,3,0,15536.34
248576,11,DarkMagenta,LightMagenta,1,0,1.5,0,1733.98
248576,12,DarkYellow,LightCyan,1,0,3,0,2238.31
248576,13,DarkBlue,DarkGreen,1,1,7,1,9370.72
248576,14,LightGreen,DarkRed,0,1,3,0,3563.39
248576,15,LightMagenta,LightYellow,0,0,7,1,2924.59
248576,16,LightMagenta,DarkMagenta,0,1,7,0,2965.49
248576,17,DarkMagenta,DarkYellow,1,1,7,1,3834.42
248576,18,DarkCyan,LightRed,1,0,7,0,4432.67
248576,19,DarkCyan,LightMagenta,1,0,7,0,2663.09
248576,20,DarkBlue,DarkMagenta,1,1,1.5,0,2732.35
248576,21,DarkCyan,LightMagenta,1,0,3,1,11631.20
248576,22,DarkCyan,DarkYellow,1,1,1.5,0,5401.52
248576,23,DarkMagenta,LightBlue,1,0,1.5,1,5135.04
248576,24,DarkCyan,LightCyan,1,0,3,1,2862.25
248576,25,LightCyan,LightYellow,0,0,7,0,9294.14
248576,26,DarkYellow,LightGreen,1,0,1.5,1,5162.17
248576,27,DarkCyan,LightCyan,1,0,7,1,1168.37
248576,28,LightYellow,DarkBlue,0,1,7,0,5600.56
248576,29,DarkMagenta,DarkCyan,1,1,3,1,3969.78
248576,30,DarkYellow,LightYellow,1,0,3,1,1567.04
248576,31,LightCyan,DarkBlue,0,1,7,0,6300.53
248576,32,DarkRed,DarkBlue,1,1,7,1,3298.60
248576,33,LightBlue,DarkMagenta,0,1,3,0,2901.99
248576,34,LightCyan,LightBlue,0,0,1.5,0,2598.85
248576,35,DarkBlue,LightBlue,1,0,3,1,7028.82
248576,36,LightCyan,LightRed,0,0,7,0,3999.78
248576,37,LightBlue,DarkGreen,0,1,7,1,4099.64
248576,38,DarkCyan,LightBlue,1,0,1.5,0,4096.88
248576,39,DarkMagenta,DarkCyan,1,1,7,0,2566.02
248576,40,LightYellow,DarkCyan,0,1,3,0,4237.60
248576,41,LightBlue,LightRed,0,0,1.5,0,3536.80
248576,42,LightYellow,DarkRed,0,1,3,0,1732.63
248576,43,DarkMagenta,LightGreen,1,0,1.5,1,18832.47
248576,44,LightRed,DarkMagenta,0,1,7,0,4566.12
248576,45,DarkGreen,LightMagenta,1,0,3,0,2001.06
248576,46,LightCyan,LightGreen,0,0,7,0,1468.07
248576,47,LightYellow,LightRed,0,0,3,1,8367.08
248576,48,LightRed,LightGreen,0,0,1.5,1,1435.35
248576,49,DarkGreen,LightCyan,1,0,7,0,5601.57
248576,50,DarkBlue,LightMagenta,1,0,1.5,0,2333.69
248576,51,DarkBlue,DarkRed,1,1,1.5,0,1598.45
248576,52,LightBlue,LightRed,0,0,7,0,1468.10
248576,53,LightRed,DarkGreen,0,1,7,0,2036.71
248576,54,DarkCyan,LightMagenta,1,0,1.5,1,13736.77
248576,55,LightRed,DarkYellow,0,1,3,0,4198.56
248576,56,LightCyan,DarkRed,0,1,3,0,2668.59
248576,57,DarkBlue,DarkYellow,1,1,1.5,0,1267.74
248576,58,DarkYellow,DarkGreen,1,1,7,0,2399.23
248576,59,LightRed,LightCyan,0,0,1.5,1,11840.83
248576,60,DarkCyan,LightGreen,1,0,1.5,1,1132.83
248576,61,DarkMagenta,LightYellow,1,0,1.5,1,1434.35
248576,62,LightRed,DarkRed,0,1,7,0,7532.37
248576,63,DarkYellow,LightGreen,1,0,7,1,2636.49
248576,64,DarkMagenta,DarkBlue,1,1,7,0,3164.83
248576,65,DarkGreen,DarkCyan,1,1,1.5,1,4161.38
248576,66,LightBlue,DarkYellow,0,1,3,0,4002.46
248576,67,LightRed,DarkBlue,0,1,1.5,0,1600.05
248576,68,LightBlue,DarkGreen,0,1,1.5,1,6732.56
248576,69,DarkGreen,DarkMagenta,1,1,7,0,4333.46
248576,70,DarkBlue,LightGreen,1,0,7,1,3099.31
248576,71,LightCyan,DarkRed,0,1,7,0,2934.29
248576,72,DarkMagenta,DarkYellow,1,1,3,0,3167.59
248576,73,LightBlue,DarkRed,0,1,7,0,1598.15
248576,74,DarkMagenta,LightGreen,1,0,3,1,11364.96
248576,75,DarkRed,DarkGreen,1,1,7,0,5272.18
248576,76,LightYellow,LightMagenta,0,0,3,1,3305.74
248576,77,DarkBlue,LightCyan,1,0,1.5,1,2167.69
248576,78,DarkMagenta,LightGreen,1,0,7,0,6159.03
248576,79,DarkGreen,DarkYellow,1,1,1.5,0,2161.37
248576,80,DarkMagenta,LightYellow,1,0,3,1,6434.74
248576,81,DarkGreen,DarkYellow,1,1,3,1,3465.51
248576,82,LightCyan,DarkMagenta,0,1,7,0,7769.69
248576,83,DarkBlue,LightMagenta,1,0,3,1,3064.16
248576,84,LightBlue,DarkBlue,0,1,1.5,0,3800.31
248576,85,LightYellow,DarkMagenta,0,1,7,0,1098.51
248576,86,LightRed,DarkRed,0,1,3,0,1263.60
248576,87,LightBlue,LightMagenta,0,0,3,0,1598.69
248576,88,DarkGreen,LightGreen,1,0,1.5,1,9469.83
248576,89,LightRed,DarkBlue,0,1,3,0,3894.62
248576,90,DarkRed,DarkCyan,1,1,7,1,3133.44
248576,91,LightCyan,LightRed,0,0,3,0,2499.18
248576,92,DarkBlue,LightYellow,1,0,1.5,0,4096.93
248576,93,DarkRed,LightBlue,1,0,3,1,7632.35
248576,94,LightGreen,DarkYellow,0,1,3,0,3299.81
248576,95,DarkRed,DarkMagenta,1,1,3,1,3238.07
248576,96,DarkCyan,DarkYellow,1,1,3,1,1700.28
248576,97,DarkGreen,LightYellow,1,0,3,0,6096.50
248576,98,DarkCyan,DarkBlue,1,1,7,0,2629.07
248576,99,DarkGreen,LightYellow,1,0,1.5,0,2474.24
248576,100,DarkBlue,DarkGreen,1,1,3,0,1535.71
248576,101,LightMagenta,LightYellow,0,0,1.5,1,12297.92
248576,102,LightYellow,LightBlue,0,0,7,0,3032.13
248576,103,LightCyan,LightBlue,0,0,3,0,1037.70
248576,104,LightGreen,LightBlue,0,0,1.5,0,1597.64
248576,105,DarkCyan,LightRed,1,0,1.5,0,1969.41
248576,106,DarkYellow,LightMagenta,1,0,7,0,834.56
248576,107,LightYellow,DarkCyan,0,1,7,0,1301.60
248576,108,LightMagenta,LightBlue,0,0,7,0,1202.67
248576,109,LightRed,LightGreen,0,0,7,0,1133.75
248576,110,DarkRed,DarkBlue,1,1,3,1,15603.10
248576,111,LightGreen,DarkCyan,0,1,3,0,4168.31
248576,112,DarkGreen,DarkCyan,1,1,3,1,4403.02
248576,113,DarkGreen,LightMagenta,1,0,7,0,3602.98
248576,114,DarkCyan,DarkGreen,1,1,7,0,735.40
248576,115,DarkYellow,LightYellow,1,0,7,0,498.70
248576,116,DarkMagenta,LightRed,1,0,1.5,1,5563.76
248576,117,LightMagenta,DarkBlue,0,1,7,0,3396.49
248576,118,DarkRed,DarkYellow,1,1,3,1,3239.29
248576,119,LightCyan,LightYellow,0,0,3,0,3504.45
248576,120,LightYellow,DarkBlue,0,1,3,0,3272.41
248576,121,LightGreen,LightBlue,0,0,7,0,2231.74
248576,122,LightBlue,DarkYellow,0,1,7,0,965.19
248576,123,DarkRed,DarkMagenta,1,1,1.5,0,1529.50
248576,124,DarkCyan,LightBlue,1,0,7,1,13609.17
248576,125,DarkRed,DarkGreen,1,1,3,1,1301.46
248576,126,LightBlue,LightYellow,0,0,1.5,1,2437.13
248576,127,DarkGreen,LightGreen,1,0,3,0,7468.19
248576,128,DarkGreen,LightRed,1,0,1.5,1,4275.56
248576,129,LightGreen,DarkGreen,0,1,7,0,4500.11
248576,130,LightGreen,LightYellow,0,0,1.5,0,1768.35
248576,131,DarkGreen,LightMagenta,1,0,1.5,1,5135.38
248576,132,LightMagenta,DarkRed,0,1,7,0,2771.03
248576,133,DarkRed,LightYellow,1,0,7,1,2368.05
248576,134,LightYellow,DarkGreen,0,1,7,0,2565.10
248576,135,DarkRed,DarkGreen,1,1,1.5,1,3271.68
248576,136,LightRed,DarkRed,0,1,1.5,0,2998.40
248576,137,DarkCyan,LightRed,1,0,3,1,6265.08
248576,138,LightGreen,LightBlue,0,0,3,1,1935.27
248576,139,LightGreen,LightMagenta,0,0,7,0,9566.52
248576,140,LightCyan,DarkBlue,0,1,3,0,1601.12
248576,141,LightRed,LightGreen,0,0,3,1,6599.71
248576,142,LightMagenta,DarkYellow,0,1,1.5,0,3564.69
248576,143,DarkCyan,LightBlue,1,0,3,0,2496.97
248576,144,LightRed,DarkMagenta,0,1,3,0,1200.44
248576,145,LightCyan,LightGreen,0,0,1.5,0,1838.36
248576,146,LightRed,LightYellow,0,0,7,0,1100.47
248576,147,DarkRed,LightCyan,1,0,1.5,1,11300.98
248576,148,LightYellow,LightCyan,0,0,1.5,1,1298.66
248576,149,DarkGreen,LightBlue,1,0,3,0,6798.49
248576,150,DarkCyan,LightYellow,1,0,1.5,0,2338.87
248576,151,LightRed,DarkGreen,0,1,3,1,7469.04
248576,152,LightYellow,DarkRed,0,1,1.5,0,2299.34
248576,153,LightCyan,DarkYellow,0,1,7,0,1391.69
248576,154,LightRed,LightYellow,0,0,1.5,0,2467.48
248576,155,DarkMagenta,LightCyan,1,0,3,1,7402.32
248576,156,LightRed,DarkYellow,0,1,1.5,0,3371.89
248576,157,DarkYellow,LightYellow,1,0,1.5,1,4738.53
248576,158,LightMagenta,DarkYellow,0,1,3,0,3806.88
248576,159,LightGreen,DarkBlue,0,1,3,0,799.97
248576,160,DarkRed,LightBlue,1,0,1.5,1,3671.22
248576,161,DarkBlue,DarkGreen,1,1,1.5,0,3167.01
248576,162,LightMagenta,LightGreen,0,0,3,1,4198.73
248576,163,LightMagenta,LightBlue,0,0,1.5,1,2767.54
248576,164,LightMagenta,LightCyan,0,0,1.5,0,7968.17
248576,165,DarkRed,DarkCyan,1,1,3,1,3499.86
248576,166,DarkBlue,DarkYellow,1,1,7,1,1198.88
248576,167,DarkCyan,DarkYellow,1,1,7,1,763.93
248576,168,LightBlue,LightYellow,0,0,3,0,6134.95
248576,169,LightMagenta,DarkMagenta,0,1,3,1,3158.07
248576,170,LightGreen,LightYellow,0,0,3,0,2365.07
248576,171,DarkMagenta,LightBlue,1,0,7,1,2266.81
248576,172,DarkYellow,LightBlue,1,0,1.5,1,834.17
248576,173,DarkRed,LightMagenta,1,0,3,1,1200.91
248576,174,LightYellow,LightGreen,0,0,7,0,5260.97
248576,175,DarkRed,LightGreen,1,0,7,1,3070.98
248576,176,DarkCyan,LightCyan,1,0,1.5,1,1566.17
248576,177,LightCyan,DarkYellow,0,1,1.5,0,5005.24
248576,178,DarkMagenta,DarkYellow,1,1,1.5,0,1429.37
248576,179,LightCyan,DarkGreen,0,1,1.5,0,935.00
248576,180,LightMagenta,LightCyan,0,0,7,0,2970.97
248576,181,DarkYellow,DarkRed,1,1,1.5,0,1232.31
248576,182,LightMagenta,LightRed,0,0,1.5,0,1052.68
248576,183,DarkMagenta,DarkGreen,1,1,1.5,0,1327.07
248576,184,LightMagenta,LightRed,0,0,3,0,1401.46
248576,185,LightGreen,LightCyan,0,0,3,0,767.00
248576,186,LightGreen,DarkRed,0,1,1.5,0,862.51
248576,187,LightGreen,DarkCyan,0,1,7,0,858.80
248576,188,DarkBlue,DarkCyan,1,1,1.5,0,1043.81
248576,189,DarkMagenta,DarkRed,1,1,7,0,1764.76
248576,190,LightMagenta,LightRed,0,0,7,0,1521.20
248576,191,DarkBlue,DarkCyan,1,1,3,0,1098.14
248576,192,DarkYellow,DarkRed,1,1,7,0,969.13
248576,193,DarkMagenta,DarkCyan,1,1,1.5,0,4203.99
248576,194,LightBlue,LightRed,0,0,3,0,778.67
248576,195,DarkYellow,LightRed,1,0,7,0,933.79
248576,196,DarkRed,DarkCyan,1,1,1.5,0,5000.01
248576,197,DarkBlue,LightGreen,1,0,1.5,1,44800.99
248576,198,LightGreen,LightMagenta,0,0,1.5,0,6670.77
