Subj#,Trial#,Left Color,Right Color,Left Luminance (0-bright 1-dark),Right Luminance (0-bright 1-dark),Viewing Distance(1.5 3 & 8 m),User response(0-left 1-right),ResponseTime (ms)
291218,1,LightMagenta,LightBlue,0,0,1.5,1,2361.63
291218,2,LightGreen,DarkRed,0,1,3,0,5333.84
291218,3,LightRed,LightGreen,0,0,3,0,2401.31
291218,4,DarkRed,LightMagenta,1,0,3,0,1896.89
291218,5,LightRed,LightCyan,0,0,7,1,11738.89
291218,6,DarkBlue,LightMagenta,1,0,1.5,1,3226.71
291218,7,LightRed,DarkCyan,0,1,3,0,9857.48
291218,8,LightCyan,LightBlue,0,0,3,1,5231.27
291218,9,LightMagenta,DarkRed,0,1,7,1,2895.85
291218,10,LightBlue,LightCyan,0,0,1.5,0,9167.47
291218,11,LightMagenta,LightCyan,0,0,3,0,2229.61
291218,12,DarkMagenta,LightYellow,1,0,7,1,7459.91
291218,13,LightRed,DarkGreen,0,1,7,0,4295.25
291218,14,DarkYellow,LightBlue,1,0,7,1,7167.59
291218,15,DarkGreen,DarkBlue,1,1,3,1,2368.85
291218,16,DarkBlue,LightBlue,1,0,7,1,2600.69
291218,17,LightMagenta,LightGreen,0,0,3,1,2033.08
291218,18,LightGreen,LightBlue,0,0,7,0,15966.25
291218,19,DarkCyan,LightMagenta,1,0,3,0,1974.39
291218,20,DarkGreen,DarkYellow,1,1,7,1,8831.00
291218,21,DarkBlue,DarkMagenta,1,1,3,0,8308.17
291218,22,LightYellow,DarkGreen,0,1,3,0,2958.98
291218,23,DarkCyan,LightRed,1,0,1.5,1,11872.19
291218,24,DarkBlue,LightGreen,1,0,1.5,1,3235.80
291218,25,DarkRed,LightCyan,1,0,3,0,11969.00
291218,26,LightRed,DarkRed,0,1,3,0,1204.45
291218,27,DarkRed,DarkCyan,1,1,7,1,7832.95
291218,28,DarkYellow,LightGreen,1,0,3,0,4597.03
291218,29,LightRed,LightMagenta,0,0,3,0,1697.84
291218,30,LightYellow,DarkBlue,0,1,7,1,8464.21
291218,31,LightGreen,LightCyan,0,0,7,1,3860.43
291218,32,LightBlue,LightYellow,0,0,1.5,0,11763.35
291218,33,LightCyan,DarkRed,0,1,7,0,3370.08
291218,34,DarkBlue,DarkMagenta,1,1,7,1,10600.56
291218,35,DarkBlue,DarkGreen,1,1,1.5,0,5533.06
291218,36,LightMagenta,LightGreen,0,0,1.5,0,3967.52
291218,37,DarkYellow,DarkMagenta,1,1,1.5,0,4230.53
291218,38,LightGreen,DarkRed,0,1,7,1,15006.14
291218,39,LightGreen,DarkMagenta,0,1,7,1,1327.66
291218,40,LightRed,DarkBlue,0,1,1.5,1,3343.87
291218,41,DarkBlue,DarkYellow,1,1,1.5,1,3737.71
291218,42,DarkCyan,LightGreen,1,0,3,1,3223.14
291218,43,LightBlue,LightYellow,0,0,7,1,1160.88
291218,44,LightYellow,DarkYellow,0,1,3,0,23097.74
291218,45,LightYellow,LightGreen,0,0,7,1,6367.28
291218,46,LightRed,LightYellow,0,0,7,1,1026.83
291218,47,DarkGreen,DarkMagenta,1,1,1.5,1,4330.34
291218,48,DarkCyan,LightGreen,1,0,7,1,1030.37
291218,49,LightRed,DarkRed,0,1,1.5,1,2887.78
291218,50,LightCyan,LightRed,0,0,1.5,1,2061.39
291218,51,DarkMagenta,DarkYellow,1,1,7,1,1023.56
291218,52,DarkRed,LightYellow,1,0,1.5,1,2763.83
291218,53,DarkBlue,LightGreen,1,0,3,1,1155.27
291218,54,LightMagenta,DarkBlue,0,1,3,1,1758.76
291218,55,DarkMagenta,LightCyan,1,0,1.5,1,1669.42
291218,56,DarkRed,DarkMagenta,1,1,3,0,28028.04
291218,57,LightCyan,DarkCyan,0,1,7,0,3401.27
291218,58,DarkBlue,LightYellow,1,0,3,1,7598.72
291218,59,LightMagenta,DarkCyan,0,1,7,1,1300.33
291218,60,LightCyan,DarkYellow,0,1,3,1,2709.63
291218,61,DarkGreen,DarkYellow,1,1,1.5,1,2598.38
291218,62,LightRed,DarkGreen,0,1,3,0,13595.76
291218,63,DarkGreen,DarkRed,1,1,7,1,5533.08
291218,64,DarkGreen,DarkMagenta,1,1,3,1,3910.03
291218,65,LightYellow,LightMagenta,0,0,1.5,1,3673.92
291218,66,LightYellow,LightRed,0,0,1.5,1,1177.13
291218,67,DarkCyan,LightYellow,1,0,1.5,0,14370.24
291218,68,LightGreen,LightYellow,0,0,1.5,0,2566.85
291218,69,DarkYellow,LightMagenta,1,0,7,1,6725.82
291218,70,LightMagenta,LightYellow,0,0,7,1,3865.90
291218,71,LightCyan,DarkYellow,0,1,1.5,1,2660.79
291218,72,LightGreen,LightBlue,0,0,3,1,2599.36
291218,73,LightMagenta,LightYellow,0,0,3,1,2637.73
291218,74,DarkYellow,DarkMagenta,1,1,3,0,18497.54
291218,75,DarkRed,LightBlue,1,0,1.5,1,7101.57
291218,76,LightMagenta,DarkCyan,0,1,1.5,1,3677.77
291218,77,DarkGreen,LightBlue,1,0,3,1,5769.25
291218,78,LightBlue,LightGreen,0,0,1.5,1,3763.82
291218,79,LightCyan,LightMagenta,0,0,1.5,1,2205.07
291218,80,DarkYellow,LightYellow,1,0,1.5,0,25802.90
291218,81,DarkCyan,DarkGreen,1,1,7,1,7261.58
291218,82,LightCyan,LightGreen,0,0,3,1,3936.68
291218,83,DarkBlue,DarkRed,1,1,3,1,3361.13
291218,84,DarkBlue,DarkCyan,1,1,1.5,1,2066.90
291218,85,DarkCyan,LightCyan,1,0,1.5,0,17396.98
291218,86,LightMagenta,DarkBlue,0,1,7,1,6432.72
291218,87,DarkRed,DarkBlue,1,1,1.5,1,2088.48
291218,88,LightMagenta,DarkRed,0,1,1.5,1,4257.24
291218,89,DarkYellow,DarkCyan,1,1,3,0,15580.27
291218,90,LightGreen,DarkMagenta,0,1,1.5,1,8886.35
291218,91,LightMagenta,LightBlue,0,0,7,1,2453.38
291218,92,DarkBlue,LightGreen,1,0,7,1,1797.01
291218,93,LightYellow,LightCyan,0,0,7,1,1963.07
291218,94,LightYellow,DarkRed,0,1,7,1,2349.19
291218,95,LightMagenta,DarkMagenta,0,1,1.5,0,19278.59
291218,96,LightMagenta,DarkGreen,0,1,7,1,10200.06
291218,97,DarkRed,DarkCyan,1,1,1.5,1,3057.30
291218,98,DarkMagenta,DarkCyan,1,1,3,1,2004.45
291218,99,DarkRed,DarkYellow,1,1,3,1,2277.79
291218,100,DarkMagenta,DarkRed,1,1,7,1,1082.66
291218,101,LightCyan,DarkGreen,0,1,3,1,1673.78
291218,102,DarkYellow,LightRed,1,0,3,1,931.64
291218,103,DarkYellow,DarkRed,1,1,1.5,1,2598.82
291218,104,DarkRed,LightCyan,1,0,1.5,0,26484.02
291218,105,LightRed,DarkBlue,0,1,3,0,1865.94
291218,106,LightCyan,LightMagenta,0,0,7,1,9897.71
291218,107,LightCyan,DarkBlue,0,1,1.5,0,9136.46
291218,108,DarkCyan,DarkRed,1,1,3,1,10935.65
291218,109,LightBlue,DarkYellow,0,1,3,0,8985.21
291218,110,DarkBlue,DarkMagenta,1,1,1.5,1,8403.45
291218,111,LightGreen,DarkMagenta,0,1,3,0,7430.68
291218,112,DarkYellow,DarkCyan,1,1,7,1,4201.37
291218,113,LightGreen,DarkYellow,0,1,7,1,3201.49
291218,114,LightGreen,LightRed,0,0,7,1,967.62
291218,115,LightYellow,DarkCyan,0,1,7,1,770.80
291218,116,LightRed,DarkMagenta,0,1,7,1,1178.89
291218,117,LightRed,DarkYellow,0,1,1.5,1,3727.91
291218,118,DarkRed,DarkYellow,1,1,7,1,1041.07
291218,119,LightBlue,LightRed,0,0,3,1,1763.95
291218,120,LightCyan,DarkBlue,0,1,3,1,944.83
291218,121,DarkYellow,LightBlue,1,0,1.5,1,2305.80
291218,122,DarkGreen,LightGreen,1,0,7,1,1036.56
291218,123,DarkRed,DarkBlue,1,1,7,1,734.04
291218,124,DarkRed,LightRed,1,0,7,1,640.30
291218,125,DarkGreen,DarkCyan,1,1,3,1,841.20
291218,126,DarkBlue,LightCyan,1,0,7,1,831.75
291218,127,DarkMagenta,LightBlue,1,0,7,1,598.49
291218,128,DarkRed,LightBlue,1,0,7,1,572.87
291218,129,LightYellow,DarkYellow,0,1,7,0,40664.51
291218,130,DarkBlue,LightBlue,1,0,1.5,1,14490.57
291218,131,DarkYellow,DarkGreen,1,1,3,1,2196.58
291218,132,LightCyan,LightGreen,0,0,1.5,1,2901.50
291218,133,LightBlue,DarkGreen,0,1,1.5,0,15024.61
291218,134,DarkRed,DarkGreen,1,1,1.5,1,9331.79
291218,135,DarkCyan,DarkMagenta,1,1,1.5,1,852.88
291218,136,DarkBlue,DarkYellow,1,1,3,0,8795.68
291218,137,LightRed,LightGreen,0,0,1.5,0,2709.76
291218,138,LightRed,DarkGreen,0,1,1.5,0,2283.60
291218,139,LightMagenta,DarkGreen,0,1,3,0,1365.38
291218,140,LightBlue,LightCyan,0,0,7,0,2484.76
291218,141,LightYellow,LightCyan,0,0,1.5,1,16052.70
291218,142,DarkYellow,LightGreen,1,0,1.5,1,1499.07
291218,143,LightMagenta,LightBlue,0,0,3,0,6449.61
291218,144,DarkBlue,LightYellow,1,0,1.5,1,4002.21
291218,145,DarkYellow,LightMagenta,1,0,1.5,1,1151.54
291218,146,DarkCyan,DarkYellow,1,1,1.5,1,3284.73
291218,147,LightBlue,DarkGreen,0,1,7,1,3800.26
291218,148,DarkMagenta,LightMagenta,1,0,7,1,998.80
291218,149,DarkCyan,LightCyan,1,0,3,1,1002.98
291218,150,LightMagenta,DarkGreen,0,1,1.5,1,4283.63
291218,151,DarkGreen,LightCyan,1,0,1.5,1,4881.16
291218,152,LightYellow,DarkGreen,0,1,1.5,1,2096.59
291218,153,DarkMagenta,LightBlue,1,0,3,0,30056.58
291218,154,DarkMagenta,DarkCyan,1,1,7,1,6900.96
291218,155,DarkYellow,LightCyan,1,0,7,0,7322.74
291218,156,LightBlue,DarkBlue,0,1,3,0,1741.01
291218,157,LightYellow,LightCyan,0,0,3,0,1231.17
291218,158,DarkCyan,DarkBlue,1,1,3,0,1233.31
291218,159,DarkMagenta,LightCyan,1,0,3,0,2031.85
291218,160,DarkGreen,DarkCyan,1,1,1.5,1,15363.15
291218,161,LightBlue,DarkCyan,0,1,1.5,1,2121.77
291218,162,LightRed,DarkMagenta,0,1,1.5,1,5996.19
291218,163,LightCyan,LightRed,0,0,3,0,15077.58
291218,164,LightYellow,DarkMagenta,0,1,1.5,1,5532.82
291218,165,LightRed,LightYellow,0,0,3,0,5831.72
291218,166,DarkGreen,DarkRed,1,1,3,0,733.59
291218,167,DarkMagenta,LightRed,1,0,3,0,1678.30
291218,168,LightMagenta,LightRed,0,0,1.5,1,9054.50
291218,169,LightYellow,LightBlue,0,0,3,1,6627.16
291218,170,DarkBlue,DarkGreen,1,1,7,0,15575.64
291218,171,LightGreen,LightMagenta,0,0,7,0,6823.17
291218,172,DarkCyan,LightGreen,1,0,1.5,1,18004.14
291218,173,DarkCyan,DarkBlue,1,1,7,0,10478.80
291218,174,LightRed,LightMagenta,0,0,7,0,1241.32
291218,175,LightCyan,DarkMagenta,0,1,7,0,1103.35
291218,176,DarkCyan,LightYellow,1,0,3,0,3294.53
291218,177,DarkMagenta,LightYellow,1,0,3,0,1326.95
291218,178,LightGreen,DarkGreen,0,1,1.5,1,16693.91
291218,179,DarkGreen,LightCyan,1,0,7,1,3496.42
291218,180,DarkBlue,LightRed,1,0,7,1,1465.33
291218,181,LightRed,DarkYellow,0,1,7,1,1803.15
291218,182,LightYellow,DarkRed,0,1,3,0,15331.50
291218,183,DarkCyan,LightRed,1,0,7,1,7503.64
291218,184,DarkMagenta,DarkGreen,1,1,7,1,1596.19
291218,185,LightGreen,LightYellow,0,0,3,0,8873.68
291218,186,DarkRed,LightGreen,1,0,1.5,1,6434.41
291218,187,LightBlue,DarkMagenta,0,1,1.5,1,2235.18
291218,188,DarkRed,LightBlue,1,0,3,0,7501.25
291218,189,LightGreen,DarkGreen,0,1,3,0,1266.29
291218,190,LightYellow,DarkGreen,0,1,7,1,6264.99
291218,191,DarkMagenta,DarkRed,1,1,1.5,1,3566.51
291218,192,LightRed,LightBlue,0,0,1.5,1,2428.67
291218,193,LightBlue,DarkCyan,0,1,3,0,11868.86
291218,194,DarkYellow,LightMagenta,1,0,3,1,4504.01
291218,195,LightRed,LightBlue,0,0,7,1,4500.30
291218,196,DarkYellow,DarkBlue,1,1,7,1,2168.03
291218,197,DarkMagenta,LightMagenta,1,0,3,0,12638.16
291218,198,LightBlue,DarkCyan,0,1,7,0,1637.71
