Subj#,Trial#,Left Color,Right Color,Left Luminance (0-bright 1-dark),Right Luminance (0-bright 1-dark),Viewing Distance(1.5 3 & 8 m),User response(0-left 1-right),ResponseTime (ms)
891454,1,LightGreen,DarkMagenta,0,1,3,1,1098.74
891454,2,DarkCyan,DarkRed,1,1,1.5,1,599.78
891454,3,DarkBlue,DarkRed,1,1,3,0,3338.68
891454,4,LightRed,LightYellow,0,0,3,1,7236.07
891454,5,LightMagenta,DarkCyan,0,1,1.5,0,7823.16
891454,6,DarkMagenta,LightBlue,1,0,3,1,3132.94
891454,7,LightCyan,DarkRed,0,1,7,0,2965.16
891454,8,LightBlue,DarkYellow,0,1,7,1,2803.06
891454,9,DarkGreen,LightBlue,1,0,7,1,1039.03
891454,10,LightMagenta,DarkMagenta,0,1,1.5,0,4552.65
891454,11,LightMagenta,LightGreen,0,0,7,0,1161.71
891454,12,DarkRed,LightRed,1,0,1.5,1,4765.93
891454,13,DarkYellow,LightRed,1,0,3,1,1299.26
891454,14,LightBlue,LightYellow,0,0,3,1,1181.33
891454,15,DarkCyan,LightYellow,1,0,7,1,999.02
891454,16,DarkCyan,DarkYellow,1,1,7,1,1035.29
891454,17,LightCyan,DarkGreen,0,1,7,0,9636.86
891454,18,LightCyan,LightRed,0,0,3,0,1437.12
891454,19,DarkCyan,DarkGreen,1,1,7,1,4695.96
891454,20,DarkBlue,DarkCyan,1,1,1.5,0,3330.30
891454,21,LightRed,DarkMagenta,0,1,3,0,1542.15
891454,22,LightYellow,DarkCyan,0,1,3,0,1084.04
891454,23,DarkYellow,LightCyan,1,0,3,1,6848.69
891454,24,LightGreen,LightBlue,0,0,3,0,2436.25
891454,25,LightCyan,DarkRed,0,1,1.5,0,1168.50
891454,26,DarkYellow,DarkGreen,1,1,3,1,4300.36
891454,27,DarkYellow,DarkCyan,1,1,1.5,0,2732.66
891454,28,LightRed,DarkCyan,0,1,3,0,1301.85
891454,29,LightMagenta,DarkGreen,0,1,1.5,0,1368.77
891454,30,LightRed,DarkRed,0,1,3,0,1165.92
891454,31,DarkGreen,LightRed,1,0,7,1,8301.13
891454,32,LightMagenta,DarkGreen,0,1,7,1,1365.28
891454,33,DarkMagenta,LightCyan,1,0,7,1,1063.93
891454,34,LightGreen,DarkRed,0,1,3,0,6329.99
891454,35,LightMagenta,LightCyan,0,0,1.5,0,1359.40
891454,36,LightRed,LightMagenta,0,0,3,0,1003.74
891454,37,DarkRed,LightBlue,1,0,7,1,6101.65
891454,38,DarkBlue,LightYellow,1,0,3,1,2033.26
891454,39,LightYellow,LightCyan,0,0,7,0,5399.43
891454,40,DarkMagenta,LightCyan,1,0,3,1,2933.27
891454,41,LightGreen,LightRed,0,0,3,0,3297.72
891454,42,DarkBlue,DarkGreen,1,1,7,1,3436.11
891454,43,DarkYellow,LightYellow,1,0,3,0,3329.13
891454,44,LightMagenta,LightGreen,0,0,1.5,0,1863.96
891454,45,DarkBlue,DarkYellow,1,1,1.5,0,1242.99
891454,46,DarkCyan,LightCyan,1,0,3,1,7436.01
891454,47,DarkMagenta,LightMagenta,1,0,7,1,1665.49
891454,48,LightMagenta,DarkYellow,0,1,3,1,2058.99
891454,49,DarkGreen,LightRed,1,0,1.5,0,8231.15
891454,50,DarkBlue,LightBlue,1,0,7,1,3361.28
891454,51,LightYellow,DarkMagenta,0,1,3,0,2640.62
891454,52,DarkCyan,LightRed,1,0,7,1,2733.09
891454,53,DarkYellow,DarkBlue,1,1,7,0,2628.03
891454,54,LightYellow,DarkMagenta,0,1,7,0,934.07
891454,55,LightYellow,DarkRed,0,1,3,0,1034.05
891454,56,DarkCyan,LightMagenta,1,0,7,1,5532.92
891454,57,DarkYellow,DarkMagenta,1,1,7,0,2565.91
891454,58,LightYellow,DarkGreen,0,1,1.5,0,4432.90
891454,59,DarkMagenta,DarkGreen,1,1,7,1,7563.42
891454,60,LightGreen,LightCyan,0,0,7,0,3171.15
891454,61,LightYellow,LightMagenta,0,0,7,0,1100.85
891454,62,DarkCyan,DarkGreen,1,1,1.5,1,4968.41
891454,63,LightGreen,LightYellow,0,0,3,0,2834.60
891454,64,LightBlue,DarkCyan,0,1,7,0,1034.85
891454,65,LightBlue,LightYellow,0,0,1.5,0,1032.91
891454,66,DarkRed,LightGreen,1,0,1.5,1,6165.83
891454,67,DarkBlue,DarkGreen,1,1,1.5,1,1000.43
891454,68,LightYellow,LightMagenta,0,0,1.5,0,4500.19
891454,69,LightMagenta,DarkYellow,0,1,1.5,0,900.79
891454,70,LightMagenta,DarkCyan,0,1,3,0,1002.40
891454,71,DarkCyan,DarkMagenta,1,1,3,0,834.86
891454,72,DarkGreen,LightCyan,1,0,3,0,1500.05
891454,73,DarkRed,DarkMagenta,1,1,1.5,1,8738.40
891454,74,LightGreen,DarkCyan,0,1,7,0,2503.16
891454,75,DarkRed,DarkMagenta,1,1,3,1,2539.94
891454,76,DarkGreen,LightBlue,1,0,3,1,1133.88
891454,77,LightGreen,DarkCyan,0,1,3,0,4364.83
891454,78,LightRed,DarkBlue,0,1,3,1,2670.68
891454,79,DarkMagenta,LightBlue,1,0,1.5,1,1134.24
891454,80,LightBlue,DarkYellow,0,1,3,0,4332.96
891454,81,LightYellow,DarkYellow,0,1,1.5,0,972.18
891454,82,LightBlue,DarkYellow,0,1,1.5,0,1070.34
891454,83,DarkRed,LightMagenta,1,0,3,1,5533.98
891454,84,LightBlue,DarkRed,0,1,1.5,0,2973.03
891454,85,LightMagenta,DarkRed,0,1,7,0,1229.87
891454,86,LightBlue,LightGreen,0,0,7,1,5008.89
891454,87,LightYellow,LightCyan,0,0,3,0,2766.37
891454,88,LightYellow,LightRed,0,0,1.5,1,2827.01
891454,89,DarkCyan,LightGreen,1,0,1.5,1,926.39
891454,90,LightBlue,LightCyan,0,0,3,1,893.57
891454,91,DarkRed,LightYellow,1,0,1.5,1,868.54
891454,92,DarkBlue,LightRed,1,0,1.5,1,865.52
891454,93,LightBlue,DarkMagenta,0,1,7,0,8207.99
891454,94,LightGreen,DarkYellow,0,1,1.5,0,855.90
891454,95,DarkMagenta,LightRed,1,0,1.5,1,3532.20
891454,96,DarkBlue,LightCyan,1,0,3,1,801.45
891454,97,LightYellow,DarkGreen,0,1,3,0,3434.35
891454,98,LightBlue,LightRed,0,0,7,0,901.53
891454,99,DarkMagenta,LightCyan,1,0,1.5,1,3671.15
891454,100,DarkYellow,LightYellow,1,0,7,1,1067.66
891454,101,DarkCyan,LightRed,1,0,1.5,0,4096.18
891454,102,DarkGreen,DarkYellow,1,1,7,0,1029.70
891454,103,DarkYellow,LightCyan,1,0,1.5,1,4035.62
891454,104,LightRed,DarkGreen,0,1,3,1,867.38
891454,105,DarkGreen,LightGreen,1,0,1.5,1,828.05
891454,106,DarkCyan,LightYellow,1,0,1.5,1,893.74
891454,107,DarkRed,LightMagenta,1,0,1.5,1,800.44
891454,108,LightBlue,DarkCyan,0,1,3,0,7525.77
891454,109,LightRed,LightGreen,0,0,7,1,2003.42
891454,110,DarkGreen,DarkMagenta,1,1,1.5,0,2163.15
891454,111,LightBlue,LightCyan,0,0,7,1,2204.27
891454,112,DarkBlue,LightCyan,1,0,1.5,1,1866.51
891454,113,DarkCyan,DarkRed,1,1,7,0,4568.86
891454,114,DarkRed,DarkGreen,1,1,3,1,2098.38
891454,115,DarkMagenta,LightGreen,1,0,1.5,1,767.96
891454,116,LightGreen,LightYellow,0,0,7,0,3296.87
891454,117,LightCyan,LightYellow,0,0,1.5,0,968.50
891454,118,DarkYellow,DarkGreen,1,1,1.5,0,837.21
891454,119,LightMagenta,LightCyan,0,0,3,1,5029.31
891454,120,DarkCyan,DarkBlue,1,1,7,0,2266.80
891454,121,DarkCyan,LightBlue,1,0,1.5,0,803.08
891454,122,LightMagenta,LightYellow,0,0,3,0,867.87
891454,123,DarkGreen,LightGreen,1,0,7,1,4865.45
891454,124,LightBlue,LightCyan,0,0,1.5,0,2366.71
891454,125,DarkRed,DarkBlue,1,1,1.5,1,2466.89
891454,126,DarkMagenta,DarkCyan,1,1,7,1,966.39
891454,127,DarkRed,DarkGreen,1,1,1.5,1,867.67
891454,128,LightGreen,DarkGreen,0,1,3,0,5168.20
891454,129,DarkYellow,LightRed,1,0,7,0,796.41
891454,130,LightCyan,DarkBlue,0,1,7,0,865.77
891454,131,DarkRed,DarkMagenta,1,1,7,1,4935.46
891454,132,DarkRed,LightBlue,1,0,3,1,831.47
891454,133,LightMagenta,LightCyan,0,0,7,0,3531.82
891454,134,DarkBlue,LightGreen,1,0,7,1,2069.69
891454,135,DarkRed,DarkCyan,1,1,3,1,867.87
891454,136,LightRed,DarkRed,0,1,7,0,3398.73
891454,137,DarkYellow,LightGreen,1,0,3,1,2033.85
891454,138,DarkRed,LightYellow,1,0,7,1,866.01
891454,139,DarkYellow,DarkBlue,1,1,3,0,3400.49
891454,140,LightRed,LightMagenta,0,0,7,1,2100.24
891454,141,DarkMagenta,DarkCyan,1,1,1.5,0,2166.57
891454,142,DarkBlue,LightYellow,1,0,1.5,0,774.43
891454,143,LightCyan,DarkCyan,0,1,1.5,0,772.38
891454,144,DarkYellow,DarkMagenta,1,1,3,0,867.76
891454,145,DarkRed,DarkYellow,1,1,3,1,6024.50
891454,146,LightBlue,LightRed,0,0,3,0,2165.17
891454,147,DarkCyan,DarkYellow,1,1,3,0,1099.75
891454,148,DarkBlue,LightGreen,1,0,3,1,3968.80
891454,149,LightGreen,LightMagenta,0,0,3,0,2465.55
891454,150,LightGreen,LightCyan,0,0,1.5,0,936.12
891454,151,LightRed,LightGreen,0,0,1.5,1,3870.43
891454,152,LightYellow,LightGreen,0,0,1.5,0,2132.42
891454,153,DarkYellow,DarkRed,1,1,1.5,0,801.27
891454,154,LightRed,LightYellow,0,0,7,1,3603.19
891454,155,LightMagenta,LightBlue,0,0,7,0,2361.95
891454,156,DarkYellow,LightRed,1,0,1.5,0,897.87
891454,157,LightBlue,DarkBlue,0,1,1.5,0,797.83
891454,158,LightGreen,DarkYellow,0,1,7,0,831.11
891454,159,LightYellow,DarkBlue,0,1,7,0,771.27
891454,160,DarkGreen,DarkRed,1,1,7,0,733.17
891454,161,LightMagenta,LightBlue,0,0,3,1,8632.11
891454,162,LightMagenta,DarkBlue,0,1,3,0,1931.66
891454,163,LightBlue,LightYellow,0,0,7,1,1870.32
891454,164,DarkMagenta,LightMagenta,1,0,3,1,599.67
891454,165,LightCyan,LightRed,0,0,7,1,797.50
891454,166,DarkGreen,LightYellow,1,0,7,1,668.73
891454,167,LightMagenta,DarkBlue,0,1,1.5,1,601.19
891454,168,LightGreen,DarkRed,0,1,7,0,6501.90
891454,169,LightBlue,LightRed,0,0,1.5,0,663.42
891454,170,LightCyan,DarkGreen,0,1,1.5,0,770.04
891454,171,LightMagenta,LightRed,0,0,1.5,0,669.96
891454,172,LightBlue,LightMagenta,0,0,1.5,1,5472.04
891454,173,DarkYellow,DarkRed,1,1,7,0,1968.65
891454,174,LightRed,LightCyan,0,0,1.5,1,1998.32
891454,175,LightRed,DarkBlue,0,1,7,0,1965.23
891454,176,DarkBlue,DarkGreen,1,1,3,1,1967.07
891454,177,LightGreen,DarkBlue,0,1,1.5,0,1899.73
891454,178,LightBlue,DarkBlue,0,1,3,1,1730.46
891454,179,DarkBlue,DarkMagenta,1,1,7,0,1667.05
891454,180,DarkYellow,DarkMagenta,1,1,1.5,1,1832.61
891454,181,DarkBlue,DarkMagenta,1,1,3,1,668.12
891454,182,DarkMagenta,LightGreen,1,0,7,1,666.76
891454,183,DarkYellow,LightCyan,1,0,7,0,4265.03
891454,184,LightGreen,LightBlue,0,0,1.5,0,767.73
891454,185,DarkBlue,DarkRed,1,1,7,0,734.55
891454,186,DarkBlue,DarkMagenta,1,1,1.5,0,601.23
891454,187,LightBlue,DarkGreen,0,1,1.5,0,799.77
891454,188,LightMagenta,DarkYellow,0,1,7,0,703.24
891454,189,DarkGreen,LightMagenta,1,0,3,1,8063.88
891454,190,DarkCyan,DarkGreen,1,1,3,1,666.15
891454,191,DarkRed,LightCyan,1,0,3,1,769.21
891454,192,LightYellow,DarkMagenta,0,1,1.5,0,4466.06
891454,193,DarkCyan,DarkBlue,1,1,3,1,1933.63
891454,194,DarkGreen,DarkMagenta,1,1,3,1,669.19
891454,195,LightCyan,DarkCyan,0,1,7,0,3065.11
891454,196,DarkBlue,LightMagenta,1,0,7,1,1903.57
891454,197,DarkMagenta,LightRed,1,0,7,0,1932.47
891454,198,LightGreen,LightCyan,0,0,3,1,1900.67
